File: docs/skjol/Polyethylene_resin_Cabernard_et_al_2018.csv
"","wavenumber","intensity","sample_name","group"
"6252482",300,0,5189,5189
"6252898",302.1,0,5189,5189
"6253314",304.1,0,5189,5189
"6253730",306.2,0,5189,5189
"6254146",308.2,0,5189,5189
"6254562",310.3,0,5189,5189
"6254978",312.3,0,5189,5189
"6255394",314.4,0,5189,5189
"6255810",316.4,0.001,5189,5189
"6256226",318.5,0.001,5189,5189
"6256642",320.5,0.001,5189,5189
"6257058",322.6,0.001,5189,5189
"6257474",324.6,0,5189,5189
"6257890",326.7,0,5189,5189
"6258306",328.7,0.001,5189,5189
"6258722",330.8,0.001,5189,5189
"6259138",332.8,0.001,5189,5189
"6259554",334.9,0.001,5189,5189
"6259970",336.9,0.001,5189,5189
"6260386",339,0.001,5189,5189
"6260802",341,0.001,5189,5189
"6261218",343.1,0.001,5189,5189
"6261634",345.1,0.001,5189,5189
"6262050",347.2,0.001,5189,5189
"6262466",349.2,0.002,5189,5189
"6262882",351.3,0.002,5189,5189
"6263298",353.3,0.002,5189,5189
"6263714",355.4,0.001,5189,5189
"6264130",357.4,0.001,5189,5189
"6264546",359.5,0.001,5189,5189
"6264962",361.6,0.001,5189,5189
"6265378",363.6,0.001,5189,5189
"6265794",365.7,0.001,5189,5189
"6266210",367.7,0.001,5189,5189
"6266626",369.8,0.001,5189,5189
"6267042",371.8,0.001,5189,5189
"6267458",373.9,0.001,5189,5189
"6267874",375.9,0.001,5189,5189
"6268290",378,0.001,5189,5189
"6268706",380,0,5189,5189
"6269122",382.1,0.001,5189,5189
"6269538",384.1,0.001,5189,5189
"6269954",386.2,0.001,5189,5189
"6270370",388.2,0.001,5189,5189
"6270786",390.3,0.001,5189,5189
"6271202",392.3,0.001,5189,5189
"6271618",394.4,0.001,5189,5189
"6272034",396.4,0.001,5189,5189
"6272450",398.5,0.001,5189,5189
"6272866",400.5,0.001,5189,5189
"6273282",402.6,0.001,5189,5189
"6273698",404.6,0.001,5189,5189
"6274114",406.7,0,5189,5189
"6274530",408.7,0.001,5189,5189
"6274946",410.8,0.001,5189,5189
"6275362",412.8,0.001,5189,5189
"6275778",414.9,0.001,5189,5189
"6276194",417,0.001,5189,5189
"6276610",419,0.001,5189,5189
"6277026",421.1,0.001,5189,5189
"6277442",423.1,0.001,5189,5189
"6277858",425.2,0.001,5189,5189
"6278274",427.2,0.001,5189,5189
"6278690",429.3,0.001,5189,5189
"6279106",431.3,0.001,5189,5189
"6279522",433.4,0.001,5189,5189
"6279938",435.4,0.001,5189,5189
"6280354",437.5,0.001,5189,5189
"6280770",439.5,0.001,5189,5189
"6281186",441.6,0.001,5189,5189
"6281602",443.6,0.001,5189,5189
"6282018",445.7,0.001,5189,5189
"6282434",447.7,0.001,5189,5189
"6282850",449.8,0.001,5189,5189
"6283266",451.8,0.002,5189,5189
"6283682",453.9,0.002,5189,5189
"6284098",455.9,0.002,5189,5189
"6284514",458,0.001,5189,5189
"6284930",460,0.001,5189,5189
"6285346",462.1,0.001,5189,5189
"6285762",464.1,0.001,5189,5189
"6286178",466.2,0.002,5189,5189
"6286594",468.2,0.001,5189,5189
"6287010",470.3,0.001,5189,5189
"6287426",472.3,0.002,5189,5189
"6287842",474.4,0.002,5189,5189
"6288258",476.5,0.001,5189,5189
"6288674",478.5,0.001,5189,5189
"6289090",480.6,0.001,5189,5189
"6289506",482.6,0.002,5189,5189
"6289922",484.7,0.001,5189,5189
"6290338",486.7,0.001,5189,5189
"6290754",488.8,0.001,5189,5189
"6291170",490.8,0.001,5189,5189
"6291586",492.9,0.002,5189,5189
"6292002",494.9,0.001,5189,5189
"6292418",497,0.002,5189,5189
"6292834",499,0.001,5189,5189
"6293250",501.1,0.001,5189,5189
"6293666",503.1,0.001,5189,5189
"6294082",505.2,0.001,5189,5189
"6294498",507.2,0.001,5189,5189
"6294914",509.3,0.001,5189,5189
"6295330",511.3,0.001,5189,5189
"6295746",513.4,0.001,5189,5189
"6296162",515.4,0,5189,5189
"6296578",517.5,0.001,5189,5189
"6296994",519.5,0.001,5189,5189
"6297410",521.6,0.001,5189,5189
"6297826",523.6,0.001,5189,5189
"6298242",525.7,0.002,5189,5189
"6298658",527.7,0.001,5189,5189
"6299074",529.8,0.001,5189,5189
"6299490",531.9,0.001,5189,5189
"6299906",533.9,0.001,5189,5189
"6300322",536,0.001,5189,5189
"6300738",538,0.001,5189,5189
"6301154",540.1,0.001,5189,5189
"6301570",542.1,0.001,5189,5189
"6301986",544.2,0.001,5189,5189
"6302402",546.2,0,5189,5189
"6302818",548.3,0.001,5189,5189
"6303234",550.3,0.001,5189,5189
"6303650",552.4,0.001,5189,5189
"6304066",554.4,0.002,5189,5189
"6304482",556.5,0.002,5189,5189
"6304898",558.5,0.001,5189,5189
"6305314",560.6,0.002,5189,5189
"6305730",562.6,0.004,5189,5189
"6306146",564.7,0.005,5189,5189
"6306562",566.7,0.005,5189,5189
"6306978",568.8,0.003,5189,5189
"6307394",570.8,0.003,5189,5189
"6307810",572.9,0.001,5189,5189
"6308226",574.9,0.001,5189,5189
"6308642",577,0,5189,5189
"6309058",579,0.001,5189,5189
"6309474",581.1,0.002,5189,5189
"6309890",583.1,0.002,5189,5189
"6310306",585.2,0.004,5189,5189
"6310722",587.2,0,5189,5189
"6311138",589.3,0.001,5189,5189
"6311554",591.4,0.002,5189,5189
"6311970",593.4,0.004,5189,5189
"6312386",595.5,0.003,5189,5189
"6312802",597.5,0.003,5189,5189
"6313218",599.6,0.003,5189,5189
"6313634",601.6,0.002,5189,5189
"6314050",603.7,0.002,5189,5189
"6314466",605.7,0.001,5189,5189
"6314882",607.8,0.001,5189,5189
"6315298",609.8,0.005,5189,5189
"6315714",611.9,0.005,5189,5189
"6316130",613.9,0.003,5189,5189
"6316546",616,0.003,5189,5189
"6316962",618,0.003,5189,5189
"6317378",620.1,0.006,5189,5189
"6317794",622.1,0.003,5189,5189
"6318210",624.2,0.003,5189,5189
"6318626",626.2,0.002,5189,5189
"6319042",628.3,0,5189,5189
"6319458",630.3,0.001,5189,5189
"6319874",632.4,0.001,5189,5189
"6320290",634.4,0.001,5189,5189
"6320706",636.5,0,5189,5189
"6321122",638.5,0.002,5189,5189
"6321538",640.6,0.003,5189,5189
"6321954",642.6,0.003,5189,5189
"6322370",644.7,0.003,5189,5189
"6322786",646.8,0.004,5189,5189
"6323202",648.8,0.002,5189,5189
"6323618",650.9,0.005,5189,5189
"6324034",652.9,0.002,5189,5189
"6324450",655,0,5189,5189
"6324866",657,0.004,5189,5189
"6325282",659.1,0.002,5189,5189
"6325698",661.1,0.001,5189,5189
"6326114",663.2,0.003,5189,5189
"6326530",665.2,0,5189,5189
"6326946",667.3,0.001,5189,5189
"6327362",669.3,0.001,5189,5189
"6327778",671.4,0.001,5189,5189
"6328194",673.4,0.001,5189,5189
"6328610",675.5,0.003,5189,5189
"6329026",677.5,0.004,5189,5189
"6329442",679.6,0.005,5189,5189
"6329858",681.6,0.005,5189,5189
"6330274",683.7,0.002,5189,5189
"6330690",685.7,0,5189,5189
"6331106",687.8,0,5189,5189
"6331522",689.8,0,5189,5189
"6331938",691.9,0,5189,5189
"6332354",693.9,0.002,5189,5189
"6332770",696,0.003,5189,5189
"6333186",698,0.002,5189,5189
"6333602",700.1,0.002,5189,5189
"6334018",702.1,0.002,5189,5189
"6334434",704.2,0.001,5189,5189
"6334850",706.3,0.001,5189,5189
"6335266",708.3,0.001,5189,5189
"6335682",710.4,0.001,5189,5189
"6336098",712.4,0.001,5189,5189
"6336514",714.5,0.001,5189,5189
"6336930",716.5,0.001,5189,5189
"6337346",718.6,0.003,5189,5189
"6337762",720.6,0.005,5189,5189
"6338178",722.7,0.004,5189,5189
"6338594",724.7,0.005,5189,5189
"6339010",726.8,0.004,5189,5189
"6339426",728.8,0.003,5189,5189
"6339842",730.9,0.002,5189,5189
"6340258",732.9,0.001,5189,5189
"6340674",735,0.001,5189,5189
"6341090",737,0,5189,5189
"6341506",739.1,0.001,5189,5189
"6341922",741.1,0,5189,5189
"6342338",743.2,0,5189,5189
"6342754",745.2,0.001,5189,5189
"6343170",747.3,0.001,5189,5189
"6343586",749.3,0.001,5189,5189
"6344002",751.4,0.001,5189,5189
"6344418",753.4,0.001,5189,5189
"6344834",755.5,0.001,5189,5189
"6345250",757.5,0.001,5189,5189
"6345666",759.6,0.001,5189,5189
"6346082",761.7,0.001,5189,5189
"6346498",763.7,0.001,5189,5189
"6346914",765.8,0.001,5189,5189
"6347330",767.8,0.001,5189,5189
"6347746",769.9,0.001,5189,5189
"6348162",771.9,0.001,5189,5189
"6348578",774,0.001,5189,5189
"6348994",776,0.001,5189,5189
"6349410",778.1,0.002,5189,5189
"6349826",780.1,0.002,5189,5189
"6350242",782.2,0.002,5189,5189
"6350658",784.2,0.001,5189,5189
"6351074",786.3,0.001,5189,5189
"6351490",788.3,0,5189,5189
"6351906",790.4,0,5189,5189
"6352322",792.4,0.001,5189,5189
"6352738",794.5,0.001,5189,5189
"6353154",796.5,0.001,5189,5189
"6353570",798.6,0.001,5189,5189
"6353986",800.6,0.001,5189,5189
"6354402",802.7,0.001,5189,5189
"6354818",804.7,0.001,5189,5189
"6355234",806.8,0,5189,5189
"6355650",808.8,0.001,5189,5189
"6356066",810.9,0.001,5189,5189
"6356482",812.9,0.001,5189,5189
"6356898",815,0.001,5189,5189
"6357314",817,0.001,5189,5189
"6357730",819.1,0.001,5189,5189
"6358146",821.2,0.001,5189,5189
"6358562",823.2,0.001,5189,5189
"6358978",825.3,0.002,5189,5189
"6359394",827.3,0.002,5189,5189
"6359810",829.4,0.001,5189,5189
"6360226",831.4,0.001,5189,5189
"6360642",833.5,0.001,5189,5189
"6361058",835.5,0.002,5189,5189
"6361474",837.6,0.002,5189,5189
"6361890",839.6,0.001,5189,5189
"6362306",841.7,0.002,5189,5189
"6362722",843.7,0.003,5189,5189
"6363138",845.8,0.003,5189,5189
"6363554",847.8,0.004,5189,5189
"6363970",849.9,0.004,5189,5189
"6364386",851.9,0.004,5189,5189
"6364802",854,0.005,5189,5189
"6365218",856,0.005,5189,5189
"6365634",858.1,0.006,5189,5189
"6366050",860.1,0.006,5189,5189
"6366466",862.2,0.007,5189,5189
"6366882",864.2,0.008,5189,5189
"6367298",866.3,0.009,5189,5189
"6367714",868.3,0.011,5189,5189
"6368130",870.4,0.012,5189,5189
"6368546",872.4,0.013,5189,5189
"6368962",874.5,0.013,5189,5189
"6369378",876.6,0.014,5189,5189
"6369794",878.6,0.013,5189,5189
"6370210",880.7,0.013,5189,5189
"6370626",882.7,0.014,5189,5189
"6371042",884.8,0.017,5189,5189
"6371458",886.8,0.021,5189,5189
"6371874",888.9,0.025,5189,5189
"6372290",890.9,0.027,5189,5189
"6372706",893,0.027,5189,5189
"6373122",895,0.025,5189,5189
"6373538",897.1,0.021,5189,5189
"6373954",899.1,0.016,5189,5189
"6374370",901.2,0.012,5189,5189
"6374786",903.2,0.008,5189,5189
"6375202",905.3,0.006,5189,5189
"6375618",907.3,0.004,5189,5189
"6376034",909.4,0.004,5189,5189
"6376450",911.4,0.003,5189,5189
"6376866",913.5,0.002,5189,5189
"6377282",915.5,0.002,5189,5189
"6377698",917.6,0.001,5189,5189
"6378114",919.6,0.006,5189,5189
"6378530",921.7,0.006,5189,5189
"6378946",923.7,0.001,5189,5189
"6379362",925.8,0.002,5189,5189
"6379778",927.8,0.002,5189,5189
"6380194",929.9,0.002,5189,5189
"6380610",931.9,0.002,5189,5189
"6381026",934,0.001,5189,5189
"6381442",936.1,0.001,5189,5189
"6381858",938.1,0.001,5189,5189
"6382274",940.2,0.002,5189,5189
"6382690",942.2,0.001,5189,5189
"6383106",944.3,0.001,5189,5189
"6383522",946.3,0.001,5189,5189
"6383938",948.4,0.001,5189,5189
"6384354",950.4,0.001,5189,5189
"6384770",952.5,0.001,5189,5189
"6385186",954.5,0.001,5189,5189
"6385602",956.6,0.001,5189,5189
"6386018",958.6,0.001,5189,5189
"6386434",960.7,0.001,5189,5189
"6386850",962.7,0.002,5189,5189
"6387266",964.8,0.001,5189,5189
"6387682",966.8,0.001,5189,5189
"6388098",968.9,0.001,5189,5189
"6388514",970.9,0.001,5189,5189
"6388930",973,0.002,5189,5189
"6389346",975,0.001,5189,5189
"6389762",977.1,0.001,5189,5189
"6390178",979.1,0.001,5189,5189
"6390594",981.2,0,5189,5189
"6391010",983.2,0.001,5189,5189
"6391426",985.3,0,5189,5189
"6391842",987.3,0,5189,5189
"6392258",989.4,0.001,5189,5189
"6392674",991.5,0.001,5189,5189
"6393090",993.5,0,5189,5189
"6393506",995.6,0.001,5189,5189
"6393922",997.6,0.001,5189,5189
"6394338",999.7,0.002,5189,5189
"6394754",1001.7,0.002,5189,5189
"6395170",1003.8,0.003,5189,5189
"6395586",1005.8,0.003,5189,5189
"6396002",1007.9,0.003,5189,5189
"6396418",1009.9,0.004,5189,5189
"6396834",1012,0.004,5189,5189
"6397250",1014,0.005,5189,5189
"6397666",1016.1,0.006,5189,5189
"6398082",1018.1,0.006,5189,5189
"6398498",1020.2,0.007,5189,5189
"6398914",1022.2,0.008,5189,5189
"6399330",1024.3,0.011,5189,5189
"6399746",1026.3,0.011,5189,5189
"6400162",1028.4,0.012,5189,5189
"6400578",1030.4,0.015,5189,5189
"6400994",1032.5,0.016,5189,5189
"6401410",1034.5,0.017,5189,5189
"6401826",1036.6,0.02,5189,5189
"6402242",1038.6,0.022,5189,5189
"6402658",1040.7,0.026,5189,5189
"6403074",1042.7,0.031,5189,5189
"6403490",1044.8,0.038,5189,5189
"6403906",1046.8,0.045,5189,5189
"6404322",1048.9,0.055,5189,5189
"6404738",1051,0.07,5189,5189
"6405154",1053,0.098,5189,5189
"6405570",1055.1,0.15,5189,5189
"6405986",1057.1,0.259,5189,5189
"6406402",1059.2,0.437,5189,5189
"6406818",1061.2,0.611,5189,5189
"6407234",1063.3,0.639,5189,5189
"6407650",1065.3,0.49,5189,5189
"6408066",1067.4,0.291,5189,5189
"6408482",1069.4,0.164,5189,5189
"6408898",1071.5,0.11,5189,5189
"6409314",1073.5,0.09,5189,5189
"6409730",1075.6,0.083,5189,5189
"6410146",1077.6,0.08,5189,5189
"6410562",1079.7,0.078,5189,5189
"6410978",1081.7,0.074,5189,5189
"6411394",1083.8,0.071,5189,5189
"6411810",1085.8,0.066,5189,5189
"6412226",1087.9,0.061,5189,5189
"6412642",1089.9,0.057,5189,5189
"6413058",1092,0.051,5189,5189
"6413474",1094,0.045,5189,5189
"6413890",1096.1,0.041,5189,5189
"6414306",1098.1,0.038,5189,5189
"6414722",1100.2,0.037,5189,5189
"6415138",1102.2,0.036,5189,5189
"6415554",1104.3,0.037,5189,5189
"6415970",1106.4,0.041,5189,5189
"6416386",1108.4,0.046,5189,5189
"6416802",1110.5,0.051,5189,5189
"6417218",1112.5,0.059,5189,5189
"6417634",1114.6,0.072,5189,5189
"6418050",1116.6,0.089,5189,5189
"6418466",1118.7,0.119,5189,5189
"6418882",1120.7,0.168,5189,5189
"6419298",1122.8,0.248,5189,5189
"6419714",1124.8,0.39,5189,5189
"6420130",1126.9,0.576,5189,5189
"6420546",1128.9,0.683,5189,5189
"6420962",1131,0.613,5189,5189
"6421378",1133,0.425,5189,5189
"6421794",1135.1,0.25,5189,5189
"6422210",1137.1,0.147,5189,5189
"6422626",1139.2,0.093,5189,5189
"6423042",1141.2,0.063,5189,5189
"6423458",1143.3,0.044,5189,5189
"6423874",1145.3,0.031,5189,5189
"6424290",1147.4,0.021,5189,5189
"6424706",1149.4,0.015,5189,5189
"6425122",1151.5,0.009,5189,5189
"6425538",1153.5,0.005,5189,5189
"6425954",1155.6,0.003,5189,5189
"6426370",1157.6,0.001,5189,5189
"6426786",1159.7,0.001,5189,5189
"6427202",1161.7,0.003,5189,5189
"6427618",1163.8,0.009,5189,5189
"6428034",1165.9,0.025,5189,5189
"6428450",1167.9,0.054,5189,5189
"6428866",1170,0.074,5189,5189
"6429282",1172,0.06,5189,5189
"6429698",1174.1,0.033,5189,5189
"6430114",1176.1,0.015,5189,5189
"6430530",1178.2,0.007,5189,5189
"6430946",1180.2,0.003,5189,5189
"6431362",1182.3,0.002,5189,5189
"6431778",1184.3,0.001,5189,5189
"6432194",1186.4,0,5189,5189
"6432610",1188.4,0,5189,5189
"6433026",1190.5,0.001,5189,5189
"6433442",1192.5,0.001,5189,5189
"6433858",1194.6,0.001,5189,5189
"6434274",1196.6,0,5189,5189
"6434690",1198.7,0.001,5189,5189
"6435106",1200.7,0,5189,5189
"6435522",1202.8,0,5189,5189
"6435938",1204.8,0.001,5189,5189
"6436354",1206.9,0.001,5189,5189
"6436770",1208.9,0.001,5189,5189
"6437186",1211,0.001,5189,5189
"6437602",1213,0.001,5189,5189
"6438018",1215.1,0.001,5189,5189
"6438434",1217.1,0.001,5189,5189
"6438850",1219.2,0.001,5189,5189
"6439266",1221.3,0.001,5189,5189
"6439682",1223.3,0.001,5189,5189
"6440098",1225.4,0.001,5189,5189
"6440514",1227.4,0.001,5189,5189
"6440930",1229.5,0.001,5189,5189
"6441346",1231.5,0.002,5189,5189
"6441762",1233.6,0.002,5189,5189
"6442178",1235.6,0.001,5189,5189
"6442594",1237.7,0.001,5189,5189
"6443010",1239.7,0.001,5189,5189
"6443426",1241.8,0.001,5189,5189
"6443842",1243.8,0.002,5189,5189
"6444258",1245.9,0.004,5189,5189
"6444674",1247.9,0.005,5189,5189
"6445090",1250,0.006,5189,5189
"6445506",1252,0.007,5189,5189
"6445922",1254.1,0.009,5189,5189
"6446338",1256.1,0.012,5189,5189
"6446754",1258.2,0.016,5189,5189
"6447170",1260.2,0.02,5189,5189
"6447586",1262.3,0.024,5189,5189
"6448002",1264.3,0.029,5189,5189
"6448418",1266.4,0.033,5189,5189
"6448834",1268.4,0.036,5189,5189
"6449250",1270.5,0.039,5189,5189
"6449666",1272.5,0.041,5189,5189
"6450082",1274.6,0.042,5189,5189
"6450498",1276.6,0.045,5189,5189
"6450914",1278.7,0.049,5189,5189
"6451330",1280.8,0.058,5189,5189
"6451746",1282.8,0.07,5189,5189
"6452162",1284.9,0.088,5189,5189
"6452578",1286.9,0.121,5189,5189
"6452994",1289,0.189,5189,5189
"6453410",1291,0.388,5189,5189
"6453826",1293.1,0.789,5189,5189
"6454242",1295.1,1,5189,5189
"6454658",1297.2,0.738,5189,5189
"6455074",1299.2,0.388,5189,5189
"6455490",1301.3,0.225,5189,5189
"6455906",1303.3,0.168,5189,5189
"6456322",1305.4,0.14,5189,5189
"6456738",1307.4,0.119,5189,5189
"6457154",1309.5,0.101,5189,5189
"6457570",1311.5,0.086,5189,5189
"6457986",1313.6,0.074,5189,5189
"6458402",1315.6,0.06,5189,5189
"6458818",1317.7,0.05,5189,5189
"6459234",1319.7,0.04,5189,5189
"6459650",1321.8,0.033,5189,5189
"6460066",1323.8,0.028,5189,5189
"6460482",1325.9,0.023,5189,5189
"6460898",1327.9,0.018,5189,5189
"6461314",1330,0.014,5189,5189
"6461730",1332,0.009,5189,5189
"6462146",1334.1,0.006,5189,5189
"6462562",1336.2,0.004,5189,5189
"6462978",1338.2,0.004,5189,5189
"6463394",1340.3,0.003,5189,5189
"6463810",1342.3,0.002,5189,5189
"6464226",1344.4,0.002,5189,5189
"6464642",1346.4,0.001,5189,5189
"6465058",1348.5,0.001,5189,5189
"6465474",1350.5,0.001,5189,5189
"6465890",1352.6,0.001,5189,5189
"6466306",1354.6,0.001,5189,5189
"6466722",1356.7,0.002,5189,5189
"6467138",1358.7,0.005,5189,5189
"6467554",1360.8,0.009,5189,5189
"6467970",1362.8,0.015,5189,5189
"6468386",1364.9,0.024,5189,5189
"6468802",1366.9,0.035,5189,5189
"6469218",1369,0.042,5189,5189
"6469634",1371,0.041,5189,5189
"6470050",1373.1,0.031,5189,5189
"6470466",1375.1,0.019,5189,5189
"6470882",1377.2,0.011,5189,5189
"6471298",1379.2,0.006,5189,5189
"6471714",1381.3,0.003,5189,5189
"6472130",1383.3,0.001,5189,5189
"6472546",1385.4,0.001,5189,5189
"6472962",1387.4,0.001,5189,5189
"6473378",1389.5,0,5189,5189
"6473794",1391.5,0.001,5189,5189
"6474210",1393.6,0.003,5189,5189
"6474626",1395.7,0.005,5189,5189
"6475042",1397.7,0.007,5189,5189
"6475458",1399.8,0.01,5189,5189
"6475874",1401.8,0.013,5189,5189
"6476290",1403.9,0.019,5189,5189
"6476706",1405.9,0.027,5189,5189
"6477122",1408,0.04,5189,5189
"6477538",1410,0.064,5189,5189
"6477954",1412.1,0.112,5189,5189
"6478370",1414.1,0.2,5189,5189
"6478786",1416.2,0.29,5189,5189
"6479202",1418.2,0.298,5189,5189
"6479618",1420.3,0.233,5189,5189
"6480034",1422.3,0.177,5189,5189
"6480450",1424.4,0.155,5189,5189
"6480866",1426.4,0.159,5189,5189
"6481282",1428.5,0.181,5189,5189
"6481698",1430.5,0.22,5189,5189
"6482114",1432.6,0.283,5189,5189
"6482530",1434.6,0.38,5189,5189
"6482946",1436.7,0.505,5189,5189
"6483362",1438.7,0.601,5189,5189
"6483778",1440.8,0.598,5189,5189
"6484194",1442.8,0.498,5189,5189
"6484610",1444.9,0.398,5189,5189
"6485026",1446.9,0.342,5189,5189
"6485442",1449,0.314,5189,5189
"6485858",1451.1,0.303,5189,5189
"6486274",1453.1,0.303,5189,5189
"6486690",1455.2,0.311,5189,5189
"6487106",1457.2,0.323,5189,5189
"6487522",1459.3,0.331,5189,5189
"6487938",1461.3,0.33,5189,5189
"6488354",1463.4,0.317,5189,5189
"6488770",1465.4,0.292,5189,5189
"6489186",1467.5,0.255,5189,5189
"6489602",1469.5,0.211,5189,5189
"6490018",1471.6,0.169,5189,5189
"6490434",1473.6,0.132,5189,5189
"6490850",1475.7,0.102,5189,5189
"6491266",1477.7,0.081,5189,5189
"6491682",1479.8,0.065,5189,5189
"6492098",1481.8,0.054,5189,5189
"6492514",1483.9,0.045,5189,5189
"6492930",1485.9,0.037,5189,5189
"6493346",1488,0.031,5189,5189
"6493762",1490,0.026,5189,5189
"6494178",1492.1,0.022,5189,5189
"6494594",1494.1,0.018,5189,5189
"6495010",1496.2,0.015,5189,5189
"6495426",1498.2,0.013,5189,5189
"6495842",1500.3,0.012,5189,5189
"6496258",1502.3,0.009,5189,5189
"6496674",1504.4,0.007,5189,5189
"6497090",1506.4,0.006,5189,5189
"6497506",1508.5,0.004,5189,5189
"6497922",1510.6,0.003,5189,5189
"6498338",1512.6,0.002,5189,5189
"6498754",1514.7,0.002,5189,5189
"6499170",1516.7,0.003,5189,5189
"6499586",1518.8,0.002,5189,5189
"6500002",1520.8,0.002,5189,5189
"6500418",1522.9,0.001,5189,5189
"6500834",1524.9,0.001,5189,5189
"6501250",1527,0.001,5189,5189
"6501666",1529,0.001,5189,5189
"6502082",1531.1,0.001,5189,5189
"6502498",1533.1,0.001,5189,5189
"6502914",1535.2,0.001,5189,5189
"6503330",1537.2,0.001,5189,5189
"6503746",1539.3,0.001,5189,5189
"6504162",1541.3,0.001,5189,5189
"6504578",1543.4,0.001,5189,5189
"6504994",1545.4,0.001,5189,5189
"6505410",1547.5,0.001,5189,5189
"6505826",1549.5,0.001,5189,5189
"6506242",1551.6,0.001,5189,5189
"6506658",1553.6,0.001,5189,5189
"6507074",1555.7,0.001,5189,5189
"6507490",1557.7,0.002,5189,5189
"6507906",1559.8,0.001,5189,5189
"6508322",1561.8,0.001,5189,5189
"6508738",1563.9,0.002,5189,5189
"6509154",1566,0.001,5189,5189
"6509570",1568,0.001,5189,5189
"6509986",1570.1,0.001,5189,5189
"6510402",1572.1,0.001,5189,5189
"6510818",1574.2,0.001,5189,5189
"6511234",1576.2,0.002,5189,5189
"6511650",1578.3,0.002,5189,5189
"6512066",1580.3,0.002,5189,5189
"6512482",1582.4,0.002,5189,5189
"6512898",1584.4,0.002,5189,5189
"6513314",1586.5,0.001,5189,5189
"6513730",1588.5,0.001,5189,5189
"6514146",1590.6,0.001,5189,5189
"6514562",1592.6,0.001,5189,5189
"6514978",1594.7,0.001,5189,5189
"6515394",1596.7,0.001,5189,5189
"6515810",1598.8,0.002,5189,5189
"6516226",1600.8,0.003,5189,5189
"6516642",1602.9,0.002,5189,5189
"6517058",1604.9,0.002,5189,5189
"6517474",1607,0.003,5189,5189
"6517890",1609,0.004,5189,5189
"6518306",1611.1,0.005,5189,5189
"6518722",1613.1,0.004,5189,5189
"6519138",1615.2,0.003,5189,5189
"6519554",1617.2,0.001,5189,5189
"6519970",1619.3,0.001,5189,5189
"6520386",1621.3,0.004,5189,5189
"6520802",1623.4,0.005,5189,5189
"6521218",1625.5,0.004,5189,5189
"6521634",1627.5,0.003,5189,5189
"6522050",1629.6,0.005,5189,5189
"6522466",1631.6,0.006,5189,5189
"6522882",1633.7,0.005,5189,5189
"6523298",1635.7,0.005,5189,5189
"6523714",1637.8,0.006,5189,5189
"6524130",1639.8,0.002,5189,5189
"6524546",1641.9,0.003,5189,5189
"6524962",1643.9,0.002,5189,5189
"6525378",1646,0.002,5189,5189
"6525794",1648,0.002,5189,5189
"6526210",1650.1,0.001,5189,5189
"6526626",1652.1,0.002,5189,5189
"6527042",1654.2,0,5189,5189
"6527458",1656.2,0,5189,5189
"6527874",1658.3,0.001,5189,5189
"6528290",1660.3,0,5189,5189
"6528706",1662.4,0,5189,5189
"6529122",1664.4,0,5189,5189
"6529538",1666.5,0.001,5189,5189
"6529954",1668.5,0,5189,5189
"6530370",1670.6,0,5189,5189
"6530786",1672.6,0.002,5189,5189
"6531202",1674.7,0.002,5189,5189
"6531618",1676.7,0.001,5189,5189
"6532034",1678.8,0,5189,5189
"6532450",1680.8,0,5189,5189
"6532866",1682.9,0,5189,5189
"6533282",1685,0,5189,5189
"6533698",1687,0,5189,5189
"6534114",1689.1,0,5189,5189
"6534530",1691.1,0,5189,5189
"6534946",1693.2,0,5189,5189
"6535362",1695.2,0,5189,5189
"6535778",1697.3,0,5189,5189
"6536194",1699.3,0.002,5189,5189
"6536610",1701.4,0,5189,5189
"6537026",1703.4,0,5189,5189
"6537442",1705.5,0.002,5189,5189
"6537858",1707.5,0,5189,5189
"6538274",1709.6,0,5189,5189
"6538690",1711.6,0.002,5189,5189
"6539106",1713.7,0.006,5189,5189
"6539522",1715.7,0.007,5189,5189
"6539938",1717.8,0.011,5189,5189
"6540354",1719.8,0.014,5189,5189
"6540770",1721.9,0.015,5189,5189
"6541186",1723.9,0.012,5189,5189
"6541602",1726,0.01,5189,5189
"6542018",1728,0.005,5189,5189
"6542434",1730.1,0,5189,5189
"6542850",1732.1,0,5189,5189
"6543266",1734.2,0,5189,5189
"6543682",1736.2,0,5189,5189
"6544098",1738.3,0,5189,5189
"6544514",1740.4,0,5189,5189
"6544930",1742.4,0,5189,5189
"6545346",1744.5,0,5189,5189
"6545762",1746.5,0,5189,5189
"6546178",1748.6,0,5189,5189
"6546594",1750.6,0,5189,5189
"6547010",1752.7,0,5189,5189
"6547426",1754.7,0,5189,5189
"6547842",1756.8,0,5189,5189
"6548258",1758.8,0,5189,5189
"6548674",1760.9,0,5189,5189
"6549090",1762.9,0,5189,5189
"6549506",1765,0,5189,5189
"6549922",1767,0,5189,5189
"6550338",1769.1,0,5189,5189
"6550754",1771.1,0,5189,5189
"6551170",1773.2,0,5189,5189
"6551586",1775.2,0,5189,5189
"6552002",1777.3,0,5189,5189
"6552418",1779.3,0,5189,5189
"6552834",1781.4,0,5189,5189
"6553250",1783.4,0,5189,5189
"6553666",1785.5,0,5189,5189
"6554082",1787.5,0,5189,5189
"6554498",1789.6,0,5189,5189
"6554914",1791.6,0,5189,5189
"6555330",1793.7,0,5189,5189
"6555746",1795.7,0,5189,5189
"6556162",1797.8,0,5189,5189
"6556578",1799.9,0,5189,5189
"6556994",1801.9,0,5189,5189
"6557410",1804,0,5189,5189
"6557826",1806,0,5189,5189
"6558242",1808.1,0,5189,5189
"6558658",1810.1,0,5189,5189
"6559074",1812.2,0,5189,5189
"6559490",1814.2,0,5189,5189
"6559906",1816.3,0,5189,5189
"6560322",1818.3,0,5189,5189
"6560738",1820.4,0,5189,5189
"6561154",1822.4,0,5189,5189
"6561570",1824.5,0,5189,5189
"6561986",1826.5,0,5189,5189
"6562402",1828.6,0,5189,5189
"6562818",1830.6,0,5189,5189
"6563234",1832.7,0,5189,5189
"6563650",1834.7,0,5189,5189
"6564066",1836.8,0,5189,5189
"6564482",1838.8,0,5189,5189
"6564898",1840.9,0,5189,5189
"6565314",1842.9,0,5189,5189
"6565730",1845,0,5189,5189
"6566146",1847,0,5189,5189
"6566562",1849.1,0,5189,5189
"6566978",1851.1,0,5189,5189
"6567394",1853.2,0,5189,5189
"6567810",1855.3,0,5189,5189
"6568226",1857.3,0,5189,5189
"6568642",1859.4,0,5189,5189
"6569058",1861.4,0,5189,5189
"6569474",1863.5,0,5189,5189
"6569890",1865.5,0,5189,5189
"6570306",1867.6,0,5189,5189
"6570722",1869.6,0,5189,5189
"6571138",1871.7,0,5189,5189
"6571554",1873.7,0,5189,5189
"6571970",1875.8,0,5189,5189
"6572386",1877.8,0,5189,5189
"6572802",1879.9,0,5189,5189
"6573218",1881.9,0,5189,5189
"6573634",1884,0,5189,5189
"6574050",1886,0,5189,5189
"6574466",1888.1,0,5189,5189
"6574882",1890.1,0,5189,5189
"6575298",1892.2,0,5189,5189
"6575714",1894.2,0,5189,5189
"6576130",1896.3,0,5189,5189
"6576546",1898.3,0,5189,5189
"6576962",1900.4,0,5189,5189
"6577378",1902.4,0,5189,5189
"6577794",1904.5,0,5189,5189
"6578210",1906.5,0,5189,5189
"6578626",1908.6,0,5189,5189
"6579042",1910.6,0,5189,5189
"6579458",1912.7,0,5189,5189
"6579874",1914.8,0,5189,5189
"6580290",1916.8,0,5189,5189
"6580706",1918.9,0,5189,5189
"6581122",1920.9,0,5189,5189
"6581538",1923,0,5189,5189
"6581954",1925,0,5189,5189
"6582370",1927.1,0,5189,5189
"6582786",1929.1,0,5189,5189
"6583202",1931.2,0,5189,5189
"6583618",1933.2,0,5189,5189
"6584034",1935.3,0,5189,5189
"6584450",1937.3,0,5189,5189
"6584866",1939.4,0,5189,5189
"6585282",1941.4,0,5189,5189
"6585698",1943.5,0,5189,5189
"6586114",1945.5,0,5189,5189
"6586530",1947.6,0,5189,5189
"6586946",1949.6,0,5189,5189
"6587362",1951.7,0,5189,5189
"6587778",1953.7,0,5189,5189
"6588194",1955.8,0,5189,5189
"6588610",1957.8,0,5189,5189
"6589026",1959.9,0,5189,5189
"6589442",1961.9,0,5189,5189
"6589858",1964,0,5189,5189
"6590274",1966,0,5189,5189
"6590690",1968.1,0,5189,5189
"6591106",1970.2,0,5189,5189
"6591522",1972.2,0,5189,5189
"6591938",1974.3,0,5189,5189
"6592354",1976.3,0,5189,5189
"6592770",1978.4,0,5189,5189
"6593186",1980.4,0,5189,5189
"6593602",1982.5,0,5189,5189
"6594018",1984.5,0,5189,5189
"6594434",1986.6,0,5189,5189
"6594850",1988.6,0,5189,5189
"6595266",1990.7,0,5189,5189
"6595682",1992.7,0,5189,5189
"6596098",1994.8,0,5189,5189
"6596514",1996.8,0,5189,5189
"6596930",1998.9,0,5189,5189
"6597346",2000.9,0,5189,5189